Folder: bac-arc-sedaDNA/metadata

Note: README.md
# sedaDNA bacteria archaea
This repo contains scripts for data analysis and visualisation for bacteria and archaea recorded in the sedimentary ancient DNA of Lake Constance.
Scripts for initial shotgun data processing can be found in the repository [shotgun-data-processing](https://github.com/wangyi91/shotgun-data-processing.git).

File: 2021-040_Harms-et-al_3_XRF_Element_Data_Composite_Core.csv
Comp Depth [cm],Al, Si, P, S, Ar, K, Ca, Ti, Mn, Fe, Ni, Rb,  Zr, Ca_Ti, Si_Ti, Zr_Ti, Ni_Ti, Fe_Ti, Al_Ti, K_Ti, Rb_K,core name
0,885,9261,0,259,10262,101821,607899,50303,5553,195282,1041,3335,1553,12.0847,0.184104,0.03087291,0.0206946,3.88211,0.0175934,2.02415,0.0327536,HIBO19-C-1-1
2.5,748,6570,0,369,9811,88399,566165,30183,4628,119832,915,3452,723,18.7577,0.2176722,0.0239539,0.0303151,3.97018,0.0247822,2.92877,0.0390502,HIBO19-C-1-1
5,613,5453,0,475,9984,58302,546319,21362,5726,124781,1156,1657,581,25.5743,0.255266,0.0271978,0.0541148,5.84126,0.0286958,2.72924,0.02842098,HIBO19-C-1-1
7.5,485,3945,0,432,9308,48787,466754,25274,6545,136061,1016,2359,1004,18.4678,0.156089,0.0397246,0.0401994,5.38344,0.0191897,1.93032,0.048353,HIBO19-C-1-1
10,466,4840,0,324,9064,52499,493788,26181,6346,129874,947,2553,546,18.8605,0.184867,0.0208548,0.0361713,4.96062,0.0177992,2.00523,0.0486295,HIBO19-C-1-1
12.5,414,2520,0,316,9046,31204,524889,16144,6459,97000,637,1881,898,32.5129,0.156095,0.0556244,0.0394574,6.00842,0.0256442,1.93285,0.0602807,HIBO19-C-1-1
15,553,4917,0,270,9027,57884,609782,26271,7281,145606,819,2498,806,23.2112,0.187165,0.0306802,0.03117506,5.54246,0.0210498,2.20334,0.0431553,HIBO19-C-1-1
17.5,710,6272,0,139,9667,68924,659473,30155,5284,142572,996,2571,873,21.8694,0.207992,0.0289504,0.0330293,4.72797,0.023545,2.28566,0.037302,HIBO19-C-1-1
20,686,6718,0,181,8939,64030,615825,29245,8998,149440,939,2651,544,21.0574,0.229714,0.01860147,0.0321081,5.10993,0.023457,2.18943,0.0414025,HIBO19-C-1-1
22.5,680,6051,0,76,8969,79318,596830,32687,5639,162904,882,3028,745,18.2589,0.185119,0.0227919,0.0269832,4.98376,0.0208034,2.42659,0.0381754,HIBO19-C-1-1
25,718,6593,0,138,8510,74721,521309,31374,7851,150919,700,3103,853,16.616,0.210142,0.0271881,0.0223115,4.81032,0.0228852,2.38162,0.0415278,HIBO19-C-1-1
27.5,909,6963,0,114,9229,102893,423694,48889,6824,189447,895,4377,945,8.66645,0.142425,0.0193295,0.0183068,3.87504,0.01859314,2.10462,0.0425393,HIBO19-C-1-1
30,688,6156,0,175,9250,96378,637590,58036,7473,240088,1037,3315,1733,10.9861,0.106072,0.0298608,0.01786822,4.13688,0.0118547,1.66066,0.0343958,HIBO19-C-1-1
32.5,827,7663,0,14,9073,105477,532360,43125,7625,176206,1099,3833,904,12.3446,0.177693,0.0209623,0.0254841,4.08594,0.0191768,2.44584,0.0363397,HIBO19-C-1-1
35,623,6188,0,43,8709,85067,508492,35646,7709,172174,942,3352,1140,14.2651,0.173596,0.0319811,0.0264265,4.83011,0.0174774,2.38644,0.0394042,HIBO19-C-1-1
37.5,770,7399,0,0,8697,99409,499018,43160,5902,176989,1085,3543,1075,11.562,0.171432,0.0249073,0.025139,4.10076,0.0178406,2.30327,0.0356406,HIBO19-C-1-1
40,918,6535,0,106,9447,136269,305209,58391,6256,249462,1014,4984,1043,5.22699,0.111918,0.0178623,0.01736569,4.27227,0.0157216,2.33373,0.0365747,HIBO19-C-1-1
42.5,686,6354,0,0,8746,93256,491534,40168,6938,177928,844,3725,1038,12.237,0.158186,0.0258415,0.0210118,4.4296,0.0170783,2.32165,0.0399438,HIBO19-C-1-1
45,879,7636,0,0,8612,103594,413997,44828,7980,195295,1204,4125,1022,9.23523,0.17034,0.0227983,0.0268582,4.35654,0.0196083,2.31092,0.0398189,HIBO19-C-1-1
47.5,767,5859,0,88,9049,96825,372232,42641,8647,176855,1009,4131,1240,8.72944,0.137403,0.02908,0.0236627,4.14753,0.0179874,2.2707,0.0426646,HIBO19-C-1-1
50,621,4971,0,0,9427,73867,644553,35309,7551,164874,988,2783,1106,18.2546,0.140786,0.0313235,0.0279815,4.66946,0.0175876,2.09202,0.0376758,HIBO19-C-1-1
52.5,577,5256,0,0,9541,82969,479261,37382,6134,174801,756,3605,1142,12.8206,0.140602,0.0305495,0.0202236,4.67607,0.0154352,2.21949,0.04345,HIBO19-C-1-1
55,620,5813,0,51,8693,66651,565482,35471,7009,169216,1011,3256,1045,15.9421,0.16388,0.0294607,0.0285022,4.77054,0.0174791,1.87903,0.04885148,HIBO19-C-1-1
57.5,814,7872,0,136,9282,108266,502552,45475,7225,186319,1200,3726,931,11.0512,0.173106,0.0204728,0.0263881,4.09717,0.0178999,2.38078,0.0344152,HIBO19-C-1-1
60,744,5840,0,109,9387,85594,476722,48488,7475,210749,773,3909,1939,9.83175,0.120442,0.0399893,0.0159421,4.34642,0.015344,1.76526,0.0456691,HIBO19-C-1-1
62.5,944,6089,0,84,8643,93296,277251,51256,8493,191011,1005,4144,1496,5.40914,0.118796,0.0291868,0.0196075,3.72661,0.0184174,1.8202,0.0444178,HIBO19-C-1-1
65,699,6907,0,0,8796,94786,560983,43624,9098,186031,984,3241,1183,12.8595,0.15833,0.0271181,0.0225564,4.26442,0.01602329,2.17279,0.0341928,HIBO19-C-1-1
67.5,765,6856,0,0,9407,85649,522067,38399,6743,182885,959,3478,1147,13.5958,0.178546,0.02987057,0.0249746,4.76275,0.0199224,2.2305,0.0406076,HIBO19-C-1-1
70,710,7224,0,0,9671,98848,573970,40341,8344,170320,958,3343,911,14.228,0.179073,0.0225825,0.0237476,4.22201,0.01759996,2.45031,0.0338196,HIBO19-C-1-1
72.5,810,7369,0,14,9650,93694,453291,42530,7471,176657,994,3701,715,10.6581,0.173266,0.0168117,0.0233717,4.1537,0.01904538,2.20301,0.0395009,HIBO19-C-1-1
75,748,7045,0,5,9520,86291,571869,36500,7463,168862,1176,3392,912,15.6676,0.193014,0.0249863,0.0322192,4.62636,0.0204932,2.36414,0.03930885,HIBO19-C-1-1
77.5,594,4984,0,19,9866,67963,534310,30729,7892,152963,876,2951,987,17.3878,0.162192,0.0321195,0.0285073,4.97781,0.0193303,2.21169,0.0434207,HIBO19-C-1-1
80,795,6718,0,54,10070,74586,590989,32283,8266,156721,862,3114,907,18.3065,0.208097,0.0280953,0.02670136,4.8546,0.024626,2.31038,0.0417505,HIBO19-C-1-1
82.5,740,6566,0,0,9488,77261,621145,32517,8442,152188,883,3159,923,19.1022,0.201925,0.0283852,0.027155,4.68026,0.0227573,2.37602,0.0408874,HIBO19-C-1-1
85,820,7959,0,27,10811,87365,663294,35132,7575,151672,947,2877,909,18.8801,0.226546,0.0258738,0.0269555,4.3172,0.0233405,2.48676,0.0329308,HIBO19-C-1-1
87.5,802,7358,0,80,9247,84864,602737,37673,11109,178037,937,2924,1101,15.9992,0.195312,0.0292252,0.0248719,4.72585,0.0212885,2.25265,0.0344551,HIBO19-C-1-1
90,971,7762,0,110,9363,103388,462643,42733,8729,177398,943,3934,799,10.8264,0.181639,0.0186975,0.0220673,4.15131,0.0227225,2.41939,0.0380508,HIBO19-C-1-1
92.5,666,6465,0,96,9298,72923,682513,34035,8317,171603,1135,2834,907,20.0533,0.189952,0.026649,0.033348,5.04196,0.0195681,2.14259,0.03886291,HIBO19-C-1-1
95,802,7008,0,139,9233,74805,507147,36657,8190,190404,987,3558,921,13.8349,0.191178,0.0251248,0.02692528,5.19421,0.0218785,2.04067,0.0475637,HIBO19-C-1-1
97.5,981,9861,0,61,10384,88215,672775,38074,8067,169236,1092,2898,600,17.6702,0.258996,0.0157588,0.02868099,4.44492,0.0257656,2.31694,0.0328516,HIBO19-C-1-1
100,832,7556,0,149,9349,72286,793847,33354,8381,154258,1157,2631,922,23.8007,0.22654,0.0276429,0.0346885,4.62487,0.0249445,2.16724,0.0363971,HIBO19-C-1-1
102.5,791,8044,0,106,8498,72587,807663,32175,11542,153273,784,2372,826,25.1022,0.250008,0.0256721,0.0243667,4.76373,0.0245843,2.25601,0.032678,HIBO19-B-1-1
105,919,9071,0,33,8949,80694,690807,35023,4307,158213,1030,3063,923,19.7244,0.259001,0.02635411,0.0294092,4.5174,0.0262399,2.30403,0.0379582,HIBO19-B-1-1
107.5,722,8472,0,0,8476,75546,811874,34597,5177,159834,993,2576,593,23.4666,0.244877,0.0171402,0.0287019,4.61988,0.0208689,2.1836,0.03409843,HIBO19-B-1-1
110,802,8691,0,0,8555,82476,747143,35083,4739,154536,1048,3231,945,21.2964,0.247727,0.0269361,0.029872,4.40487,0.0228601,2.35088,0.039175,HIBO19-B-1-1
112.5,854,8376,0,68,8550,79457,732680,37527,7687,162421,927,2969,1026,19.5241,0.223199,0.0273403,0.0247022,4.32811,0.0227569,2.11733,0.0373661,HIBO19-B-1-1
115,916,8457,0,113,8555,78149,717980,37016,4484,165291,1033,2927,743,19.3965,0.228469,0.0200724,0.0279069,4.46539,0.0247461,2.11122,0.0374541,HIBO19-B-1-1
117.5,833,7362,0,115,8924,73710,751786,34101,5176,164970,917,2500,677,22.0459,0.215888,0.01985279,0.0268907,4.83769,0.0244274,2.16152,0.0339167,HIBO19-B-1-1
120,584,6495,0,141,8924,70156,707961,32121,4271,146059,1110,2798,1158,22.0404,0.202204,0.0360512,0.0345568,4.54715,0.0181813,2.18412,0.0398825,HIBO19-B-1-1
122.5,624,6582,0,192,8530,68913,695303,33468,4022,164121,933,2646,904,20.7752,0.196665,0.0270109,0.0278774,4.90382,0.0186447,2.05907,0.0383962,HIBO19-B-1-1
125,566,4658,0,225,8724,57733,540697,29198,4224,141854,919,2840,1101,18.5183,0.159531,0.0377081,0.0314748,4.85835,0.0193849,1.97729,0.04919197,HIBO19-B-1-1
127.5,698,6340,0,204,8629,69905,601216,34875,3653,172134,738,3072,938,17.2392,0.181792,0.0268961,0.02116129,4.93574,0.0200143,2.00444,0.0439454,HIBO19-B-1-1
130,902,8799,0,249,8579,83372,653686,39890,5183,177205,727,3232,1179,16.3872,0.220582,0.02955628,0.0182251,4.44234,0.0226122,2.09005,0.038766,HIBO19-B-1-1
132.5,906,8669,0,171,9043,75546,592659,36409,7018,173443,941,3060,1034,16.2778,0.2381,0.0283996,0.0258453,4.76374,0.024884,2.07493,0.0405051,HIBO19-B-1-1
135,1020,10042,0,145,8904,90247,721568,40391,4955,182890,817,2905,933,17.8646,0.24862,0.0230992,0.0202273,4.52799,0.02525315,2.23433,0.0321894,HIBO19-B-1-1
137.5,550,5594,0,290,8951,61584,606284,32028,5566,165110,876,3069,979,18.9298,0.17466,0.030567,0.0273511,5.15518,0.0171725,1.92282,0.0498344,HIBO19-B-1-1
140,1046,9929,0,78,9391,89559,768084,40438,5584,176545,991,2944,639,18.9941,0.245536,0.015802,0.0245067,4.36582,0.0258668,2.21472,0.0328722,HIBO19-B-1-1
142.5,844,8733,0,120,9475,80876,681569,39068,4958,183430,1018,3273,1130,17.4457,0.223533,0.0289239,0.0260571,4.69515,0.0216034,2.07013,0.0404694,HIBO19-B-1-1
145,912,9101,0,185,9306,83994,679200,39051,4603,174941,735,2969,1213,17.3926,0.233054,0.0310619,0.0188215,4.47981,0.0233541,2.15088,0.0353478,HIBO19-B-1-1
146.5,965,8909,0,158,9113,78682,672184,38049,4340,176120,1157,3372,990,17.6663,0.234145,0.0260191,0.0304082,4.62877,0.025362,2.06791,0.0428561,HIBO19-B-1-1
147,nan,nan,nan,nan,nan,nan,nan,nan,nan,nan,nan,nan,nan,nan,nan,nan,nan,nan,nan,nan,nan,HIBO19-B-1-1
147.5,nan,nan,nan,nan,nan,nan,nan,nan,nan,nan,nan,nan,nan,nan,nan,nan,nan,nan,nan,nan,nan,HIBO19-B-1-1
148,nan,nan,nan,nan,nan,nan,nan,nan,nan,nan,nan,nan,nan,nan,nan,nan,nan,nan,nan,nan,nan,HIBO19-B-1-1
148.5,nan,nan,nan,nan,nan,nan,nan,nan,nan,nan,nan,nan,nan,nan,nan,nan,nan,nan,nan,nan,nan,HIBO19-B-1-1
149,nan,nan,nan,nan,nan,nan,nan,nan,nan,nan,nan,nan,nan,nan,nan,nan,nan,nan,nan,nan,nan,HIBO19-B-1-1
149.5,nan,nan,nan,nan,nan,nan,nan,nan,nan,nan,nan,nan,nan,nan,nan,nan,nan,nan,nan,nan,nan,HIBO19-B-1-1
150,nan,nan,nan,nan,nan,nan,nan,nan,nan,nan,nan,nan,nan,nan,nan,nan,nan,nan,nan,nan,nan,HIBO19-B-1-1
150.5,nan,nan,nan,nan,nan,nan,nan,nan,nan,nan,nan,nan,nan,nan,nan,nan,nan,nan,nan,nan,nan,HIBO19-B-1-1
151,nan,nan,nan,nan,nan,nan,nan,nan,nan,nan,nan,nan,nan,nan,nan,nan,nan,nan,nan,nan,nan,HIBO19-B-1-2
151.5,nan,nan,nan,nan,nan,nan,nan,nan,nan,nan,nan,nan,nan,nan,nan,nan,nan,nan,nan,nan,nan,HIBO19-B-1-2
152,nan,nan,nan,nan,nan,nan,nan,nan,nan,nan,nan,nan,nan,nan,nan,nan,nan,nan,nan,nan,nan,HIBO19-B-1-2
152.5,nan,nan,nan,nan,nan,nan,nan,nan,nan,nan,nan,nan,nan,nan,nan,nan,nan,nan,nan,nan,nan,HIBO19-B-1-2
153,nan,nan,nan,nan,nan,nan,nan,nan,nan,nan,nan,nan,nan,nan,nan,nan,nan,nan,nan,nan,nan,HIBO19-B-1-2
153.5,nan,nan,nan,nan,nan,nan,nan,nan,nan,nan,nan,nan,nan,nan,nan,nan,nan,nan,nan,nan,nan,HIBO19-B-1-2
154,nan,nan,nan,nan,nan,nan,nan,nan,nan,nan,nan,nan,nan,nan,nan,nan,nan,nan,nan,nan,nan,HIBO19-B-1-2
154.5,nan,nan,nan,nan,nan,nan,nan,nan,nan,nan,nan,nan,nan,nan,nan,nan,nan,nan,nan,nan,nan,HIBO19-B-1-2
155,nan,nan,nan,nan,nan,nan,nan,nan,nan,nan,nan,nan,nan,nan,nan,nan,nan,nan,nan,nan,nan,HIBO19-B-1-2
155.5,nan,nan,nan,nan,nan,nan,nan,nan,nan,nan,nan,nan,nan,nan,nan,nan,nan,nan,nan,nan,nan,HIBO19-B-1-2
156,nan,nan,nan,nan,nan,nan,nan,nan,nan,nan,nan,nan,nan,nan,nan,nan,nan,nan,nan,nan,nan,HIBO19-B-1-2
156.5,nan,nan,nan,nan,nan,nan,nan,nan,nan,nan,nan,nan,nan,nan,nan,nan,nan,nan,nan,nan,nan,HIBO19-B-1-2
157,nan,nan,nan,nan,nan,nan,nan,nan,nan,nan,nan,nan,nan,nan,nan,nan,nan,nan,nan,nan,nan,HIBO19-B-1-2
157.5,nan,nan,nan,nan,nan,nan,nan,nan,nan,nan,nan,nan,nan,nan,nan,nan,nan,nan,nan,nan,nan,HIBO19-B-1-2
158,648,6043,0,135,11069,62273,507788,31788,4732,156796,959,3030,1003,15.9742,0.190103,0.0315528,0.0301686,4.93255,0.0203851,1.95901,0.0486567,HIBO19-B-1-2
158.5,545,4947,0,87,10818,56758,520000,29850,5030,152601,910,2851,991,17.4204,0.165729,0.03319933,0.0304858,5.11226,0.018258,1.90144,0.0502308,HIBO19-B-1-2
159,nan,nan,nan,nan,nan,nan,nan,nan,nan,nan,nan,nan,nan,nan,nan,nan,nan,nan,nan,nan,nan,HIBO19-B-1-2
159.5,nan,nan,nan,nan,nan,nan,nan,nan,nan,nan,nan,nan,nan,nan,nan,nan,nan,nan,nan,nan,nan,HIBO19-B-1-2
160,nan,nan,nan,nan,nan,nan,nan,nan,nan,nan,nan,nan,nan,nan,nan,nan,nan,nan,nan,nan,nan,HIBO19-B-1-2
160.5,nan,nan,nan,nan,nan,nan,nan,nan,nan,nan,nan,nan,nan,nan,nan,nan,nan,nan,nan,nan,nan,HIBO19-B-1-2
161,nan,nan,nan,nan,nan,nan,nan,nan,nan,nan,nan,nan,nan,nan,nan,nan,nan,nan,nan,nan,nan,HIBO19-B-1-2
161.5,539,4933,0,170,10855,65297,419310,31782,6827,150865,751,3191,662,13.1933,0.155214,0.0208294,0.0236297,4.74687,0.0169593,2.05453,0.048869,HIBO19-B-1-2
162,747,7384,0,139,10724,73212,610860,35034,5691,166048,955,2790,617,17.4362,0.210767,0.0176115,0.0272592,4.73962,0.0213221,2.08974,0.0381085,HIBO19-B-1-2
162.5,nan,nan,nan,nan,nan,nan,nan,nan,nan,nan,nan,nan,nan,nan,nan,nan,nan,nan,nan,nan,nan,HIBO19-B-1-2
163,828,8190,0,86,10870,75986,618217,35617,6103,146589,935,3011,840,17.3574,0.229946,0.0235842,0.0262515,4.1157,0.0232473,2.13342,0.0396257,HIBO19-B-1-2
163.5,nan,nan,nan,nan,nan,nan,nan,nan,nan,nan,nan,nan,nan,nan,nan,nan,nan,nan,nan,nan,nan,HIBO19-B-1-2
164,nan,nan,nan,nan,nan,nan,nan,nan,nan,nan,nan,nan,nan,nan,nan,nan,nan,nan,nan,nan,nan,HIBO19-B-1-2
164.5,nan,nan,nan,nan,nan,nan,nan,nan,nan,nan,nan,nan,nan,nan,nan,nan,nan,nan,nan,nan,nan,HIBO19-B-1-2
165,nan,nan,nan,nan,nan,nan,nan,nan,nan,nan,nan,nan,nan,nan,nan,nan,nan,nan,nan,nan,nan,HIBO19-B-1-2
165.5,nan,nan,nan,nan,nan,nan,nan,nan,nan,nan,nan,nan,nan,nan,nan,nan,nan,nan,nan,nan,nan,HIBO19-B-1-2
166,813,7887,0,154,10673,68621,645698,33260,8026,156560,869,2576,791,19.4137,0.237132,0.0237823,0.02612748,4.70716,0.0244438,2.06317,0.0375395,HIBO19-B-1-2
167,944,8897,0,130,10644,85386,590423,36308,5503,156720,961,2892,970,16.2615,0.245042,0.0267159,0.026468,4.3164,0.02599978,2.35171,0.0338697,HIBO19-B-1-2
168,1043,9711,0,169,11132,97129,514346,42672,7278,175050,1075,3668,694,12.0535,0.227573,0.0162636,0.0251922,4.10222,0.0244423,2.27618,0.03776421,HIBO19-B-1-2
169,799,7567,0,96,11049,80098,527672,38325,5556,171260,1008,3186,988,13.7683,0.197443,0.0257795,0.02630137,4.46862,0.02084801,2.08997,0.0397763,HIBO19-B-1-2
170,701,6337,0,117,10807,69381,540557,34681,5102,158999,929,3008,708,15.5865,0.182723,0.0204146,0.026787,4.58461,0.0202128,2.00055,0.0433548,HIBO19-B-1-2
171,1117,10007,0,69,10747,97961,561342,43410,5962,182769,1070,3022,985,12.9312,0.230523,0.0226906,0.0246487,4.2103,0.0257314,2.25665,0.030849,HIBO19-B-1-2
172,1412,12157,0,86,10696,129399,404390,55638,8975,212897,917,4228,950,7.26823,0.218502,0.0170747,0.0164815,3.82647,0.0253783,2.32573,0.0326741,HIBO19-B-1-2
173,706,6840,0,211,10620,80380,506151,50539,6120,203025,752,3163,1572,10.0151,0.135341,0.0311047,0.0148796,4.01719,0.01396941,1.59045,0.0393506,HIBO19-B-1-2
174,749,6418,0,194,10663,66215,475721,34442,7016,162014,960,2849,656,13.8122,0.186342,0.0190465,0.0278729,4.70397,0.0217467,1.92251,0.0430265,HIBO19-B-1-2
175,1038,9896,0,59,10390,84561,616627,41645,8528,168027,932,2984,957,14.8067,0.237628,0.02297995,0.0223796,4.03475,0.024925,2.03052,0.0352881,HIBO19-B-1-2
176,812,6606,0,163,10528,71851,566969,37300,7105,160992,960,2909,723,15.2002,0.177105,0.0193834,0.0257373,4.31614,0.0217694,1.9263,0.0404866,HIBO19-B-1-2
177,904,8315,0,100,10140,81920,566197,40128,9857,173484,1017,3048,712,14.1098,0.207212,0.0177432,0.0253439,4.32327,0.0225279,2.04147,0.037207,HIBO19-B-1-2
178,863,8398,0,28,10664,77344,572919,38278,5362,166251,792,2948,801,14.9673,0.219395,0.0209259,0.0206907,4.34325,0.0225456,2.02059,0.0381154,HIBO19-B-1-2
179,820,8541,0,100,10574,80789,608618,38693,4827,163965,803,3123,845,15.7294,0.220738,0.0218386,0.0207531,4.23759,0.0211925,2.08795,0.0386563,HIBO19-B-1-2
180,961,9327,0,41,10308,81397,726687,39566,8440,172791,860,2875,926,18.3665,0.2357327,0.0234039,0.0217358,4.36716,0.0242885,2.05725,0.0353207,HIBO19-B-1-2
181,580,5448,0,151,9923,61132,582437,33442,7609,161794,876,2607,904,17.4163,0.162909,0.0270319,0.0261946,4.83805,0.01734346,1.828,0.0426454,HIBO19-B-1-2
182,875,9211,0,33,10055,82123,660080,40910,6851,189964,1131,3077,599,16.1349,0.225153,0.0146419,0.0276461,4.64346,0.0213884,2.00741,0.0374682,HIBO19-B-1-2
183,742,7430,0,138,9762,76125,593778,39686,7187,173895,961,3074,817,14.9619,0.18722,0.0205866,0.0242151,4.38177,0.01869677,1.91818,0.040381,HIBO19-B-1-2
184,854,8939,0,123,9937,84329,599231,42749,4999,186904,961,2989,1115,14.0174,0.209104,0.0260825,0.0224801,4.37213,0.0199771,1.97265,0.0354445,HIBO19-B-1-2
185,960,8723,0,61,9700,94606,512501,42571,4605,190797,773,3875,829,12.0387,0.204905,0.01947335,0.0181579,4.48185,0.0225506,2.22231,0.0409593,HIBO19-B-1-2
186,617,5710,0,135,9408,62980,511881,33381,6567,161201,919,3145,973,15.3345,0.171055,0.0291483,0.0275306,4.82912,0.0184836,1.8867,0.0499365,HIBO19-B-1-2
187,1055,9328,0,122,9637,83926,695554,41149,8587,167468,935,2873,1153,16.9033,0.226688,0.0280201,0.0227223,4.0698,0.0256385,2.03956,0.0342325,HIBO19-B-1-2
188,1005,9961,0,94,10032,88611,689692,43488,7351,179649,1151,2725,1004,15.8594,0.229052,0.0230868,0.0264671,4.131,0.0231098,2.0376,0.03075239,HIBO19-B-1-2
189,764,8177,0,118,10212,78637,578629,39560,5226,186611,905,2892,911,14.6266,0.206699,0.0230283,0.0228766,4.71716,0.0193124,1.98779,0.0367766,HIBO19-B-1-2
[...]
2322.5,1073,23010,0,27,10955,66532,672974,32586,2736,120475,614,2218,1385,20.6522,0.706131,0.0425029,0.0188424,3.69714,0.0329283,2.04174,0.0333373,HIBO19-A-11-2
2324,756,31218,0,18,9234,47296,488787,14149,3357,76666,576,2070,976,34.5457,2.20638,0.06898014,0.0407096,5.41847,0.0534313,3.34271,0.0437669,HIBO19-A-11-2
2325.5,892,33657,0,14,9562,48225,424785,23106,1743,82929,596,2024,1266,18.3842,1.45663,0.054791,0.0257942,3.58907,0.0386047,2.08712,0.0419699,HIBO19-A-11-2
2327,781,32190,0,7,9360,42992,462478,19687,2442,75262,598,1782,1213,23.4915,1.63509,0.0616143,0.0303754,3.82293,0.0396708,2.18378,0.0414496,HIBO19-A-11-2
2328.5,798,31196,0,11,9303,49168,476203,18063,2726,81568,661,1935,937,26.3635,1.72707,0.051874,0.0365941,4.51575,0.0441787,2.72203,0.0393549,HIBO19-A-11-2
2330,835,33333,0,0,9138,48099,465684,17443,2627,71996,650,1605,1303,26.6975,1.91097,0.0747005,0.0372642,4.1275,0.0478702,2.7575,0.0333687,HIBO19-A-11-2
2331.5,817,30270,0,63,9071,46183,376697,22220,4067,80323,684,1574,880,16.9531,1.36229,0.03960396,0.0307831,3.6149,0.0367687,2.07844,0.0340818,HIBO19-A-11-2
2333,810,33385,0,43,9431,44527,431710,30968,3760,76277,517,2057,1118,13.9405,1.07805,0.0361018,0.0166947,2.46309,0.026156,1.43784,0.04619669,HIBO19-A-11-2
2334.5,756,34489,0,23,9406,50203,475171,18050,1725,85401,291,1771,1010,26.3253,1.91075,0.0559557,0.0161219,4.73136,0.0418837,2.78133,0.0352768,HIBO19-A-11-2
2336,950,37291,0,0,8759,52255,488759,23600,2467,70066,670,2071,1369,20.7101,1.58013,0.0580085,0.0283898,2.9689,0.0402542,2.21419,0.0396326,HIBO19-A-11-2
2337.5,848,35014,0,0,9006,48456,440443,27210,2810,72935,527,1978,1124,16.1868,1.28681,0.0413083,0.0193679,2.68045,0.031165,1.78082,0.0408205,HIBO19-A-11-2
2339,874,34467,0,0,9354,48368,480942,25746,2239,83145,583,1785,1360,18.6803,1.33873,0.05282374,0.0226443,3.22943,0.033947,1.87866,0.0369046,HIBO19-A-11-2
2340.5,1105,21439,0,0,9172,74509,680104,40299,2640,146278,758,2488,1536,16.8764,0.531998,0.03811509,0.0188094,3.62982,0.02742,1.8489,0.0333919,HIBO19-A-11-2
2342,1032,18864,0,0,9536,69632,634172,38376,4094,145578,723,2262,1601,16.5252,0.491557,0.0417188,0.0188399,3.79346,0.0268918,1.81447,0.0324851,HIBO19-A-11-2
2343.5,1289,13940,0,18,9409,92183,858915,55059,2533,211512,721,2409,1906,15.5999,0.253183,0.03461741,0.013095,3.84155,0.02341125,1.67426,0.0261328,HIBO19-A-11-2
2345,1154,13861,0,0,9130,87003,868010,53409,3573,195387,787,2616,1818,16.2521,0.259526,0.0340392,0.0147353,3.65832,0.0216068,1.629,0.0300679,HIBO19-A-11-2
2346.5,1051,13457,0,0,9422,80729,819100,47950,2200,177905,777,2372,2001,17.0824,0.280647,0.04173097,0.01620438,3.71022,0.0219187,1.68361,0.0293823,HIBO19-A-11-2
2348,953,16320,0,0,9267,72743,844751,52641,2741,152908,674,2077,3059,16.0474,0.310025,0.0581106,0.0128037,2.90473,0.0181038,1.38187,0.0285526,HIBO19-A-11-2
2349.5,1135,25725,0,0,9425,70017,691788,43174,2772,131316,560,2208,1422,16.0233,0.595845,0.03293649,0.0129708,3.04155,0.02628897,1.62174,0.0315352,HIBO19-A-11-2
2351,709,34370,0,0,8626,45786,481746,12894,2331,58649,528,2045,1229,37.362,2.66558,0.0953157,0.0409493,4.54855,0.0549868,3.55095,0.0446643,HIBO19-A-11-2
2352.5,835,30758,0,0,9073,51795,538343,28815,1791,81382,559,1806,829,18.6827,1.06743,0.0287697,0.0193996,2.82429,0.028978,1.7975,0.0348682,HIBO19-A-11-2
2354,734,32185,0,0,8893,47652,512962,22124,2623,73093,592,1678,1265,23.1858,1.45476,0.0571777,0.0267583,3.30379,0.0331766,2.15386,0.0352136,HIBO19-A-11-2
2355.5,839,31054,0,0,8235,49839,528121,21447,2761,88217,658,1832,1200,24.6245,1.44794,0.0559519,0.0306803,4.11326,0.03911969,2.32382,0.0367584,HIBO19-A-11-2
2357,716,28870,0,0,8188,42074,431610,22402,2441,75385,681,1787,1454,19.2666,1.28872,0.0649049,0.0303991,3.3651,0.0319614,1.87814,0.0424728,HIBO19-A-11-2
2358.5,903,33828,0,0,8652,47281,441250,20783,2745,87913,688,1808,878,21.2313,1.62768,0.0422461,0.033104,4.23004,0.043449,2.27498,0.0382395,HIBO19-A-11-2
2360,804,34862,0,0,8605,45566,482582,19892,1799,64742,645,1760,963,24.2601,1.75256,0.0484114,0.0324251,3.25468,0.0404183,2.29067,0.0386253,HIBO19-A-11-2
2361.5,802,31239,0,0,8593,52426,489078,23224,3152,67957,626,1976,1069,21.0592,1.34512,0.04603,0.0269549,2.92615,0.0345332,2.25741,0.0376912,HIBO19-A-11-2
2363,894,34815,0,0,8626,48720,513708,19649,2066,82124,709,1816,1180,26.1442,1.77185,0.0600539,0.0360833,4.17955,0.0454985,2.47952,0.03727422,HIBO19-A-11-2
2364.5,918,22331,0,0,7761,48890,571165,29836,3298,107027,708,1824,1972,19.1435,0.748458,0.0660947,0.0237297,3.58718,0.0307682,1.63862,0.0373082,HIBO19-A-11-2
2366,1228,14919,0,44,8855,89933,899673,54946,3472,193542,931,2551,1916,16.3738,0.271521,0.0348706,0.0169439,3.5224,0.0223492,1.63675,0.0283656,HIBO19-A-11-2
2367.5,843,15154,0,0,8934,58727,765729,38036,2566,122800,655,1879,2857,20.1317,0.398412,0.0751131,0.0172205,3.22852,0.0221632,1.54398,0.0319955,HIBO19-A-11-2
2369,1303,14814,0,0,8458,88176,844311,48016,2399,188255,935,2854,1934,17.584,0.308522,0.0402782,0.0194727,3.92067,0.0271368,1.83639,0.0323671,HIBO19-A-11-2
2370.5,1323,14414,0,0,8677,93022,895266,51723,3504,210802,744,2813,1610,17.3089,0.278677,0.0311274,0.0143843,4.07559,0.0255786,1.79846,0.0302402,HIBO19-A-11-2
2372,1259,17144,0,23,9391,87960,1003736,55196,3162,192146,921,2502,2625,18.1849,0.310602,0.0475578,0.016686,3.48116,0.0228096,1.59359,0.0284447,HIBO19-A-11-2
2373.5,1506,17752,0,0,9317,87339,1027634,69581,2795,192126,1078,2472,4238,14.7689,0.255127,0.0609074,0.0154927,2.76118,0.02164384,1.25521,0.0283035,HIBO19-A-11-2
2375,1302,16507,0,166,9215,91383,953512,56938,3314,200390,1024,2411,2262,16.7465,0.289912,0.0397274,0.0179845,3.51944,0.022867,1.60496,0.0263835,HIBO19-A-11-2
2376.5,901,15898,0,28,9183,66926,692772,40448,2242,132947,798,2027,2412,17.1275,0.393048,0.05963212,0.019729,3.28686,0.0222755,1.65462,0.0302872,HIBO19-A-11-2
2378,1140,20364,0,28,8879,68243,753177,46020,3236,138195,814,2131,2114,16.3663,0.442503,0.0459365,0.017688,3.00293,0.0247718,1.4829,0.0312266,HIBO19-A-11-2
2379.5,841,19842,0,175,9664,60924,718864,42709,2167,125346,581,2091,2728,16.8317,0.464586,0.0638741,0.01360369,2.93488,0.0196914,1.42649,0.03432145,HIBO19-A-11-2
2381,1093,24606,0,94,9467,67089,721943,40157,2750,119408,608,1882,2055,17.978,0.612745,0.0511741,0.0151406,2.97353,0.0272182,1.67067,0.0280523,HIBO19-A-11-2
2382.5,1273,24582,0,664,9618,81559,757572,50250,2873,158327,871,2252,2673,15.0761,0.489194,0.05319403,0.0173333,3.15079,0.0253333,1.62306,0.0276119,HIBO19-A-11-2
2384,1445,15939,0,0,9635,95180,930861,52577,1259,207562,962,2859,1707,17.7047,0.303155,0.0324667,0.018297,3.94777,0.0274835,1.8103,0.0300378,HIBO19-A-11-2
2385.5,1452,16495,0,0,9890,98227,978149,55521,1685,212612,677,2903,1927,17.6176,0.297095,0.0347076,0.0121936,3.8294,0.0261523,1.76919,0.029554,HIBO19-A-11-2
2387,1598,16293,0,158,9517,100528,966914,55418,2745,217686,1083,2668,1603,17.4477,0.294002,0.02892562,0.0195424,3.92807,0.0288354,1.814,0.0265399,HIBO19-A-11-2
2388.5,1461,15113,0,108,9609,96593,970552,53689,2815,213541,798,2741,1574,18.0773,0.281492,0.029317,0.01486338,3.97737,0.0272123,1.79912,0.0283768,HIBO19-A-11-2
2390,1293,14293,0,81,9625,93805,1032341,55036,2942,212310,899,2647,1462,18.7576,0.259703,0.0265644,0.0163348,3.85766,0.0234937,1.70443,0.0282181,HIBO19-A-11-2
2391.5,1251,15038,0,175,9765,90787,1042907,64106,2869,207410,977,2537,2300,16.2685,0.23458,0.0358781,0.0152404,3.23542,0.0195146,1.4162,0.02794453,HIBO19-A-11-2
2393,1398,14948,0,200,9688,98267,975372,55531,1586,219265,986,2585,1418,17.5645,0.269183,0.0255353,0.0177558,3.94852,0.0251751,1.76959,0.0263059,HIBO19-A-11-2
2394.5,1388,15289,0,124,9728,97593,976593,54368,2584,219058,836,2691,1409,17.9626,0.281213,0.02591598,0.0153767,4.02917,0.0255297,1.79504,0.0275737,HIBO19-A-11-2
2396,1426,16004,0,75,9569,99909,940097,56610,1365,224604,956,2846,1850,16.6066,0.282706,0.0326797,0.0168875,3.96757,0.0251899,1.76486,0.0284859,HIBO19-A-11-2
2397.5,1580,24206,0,404,10053,97964,593706,50242,2234,187298,772,2590,1842,11.8169,0.481788,0.0366626,0.01536563,3.72792,0.0314478,1.94984,0.0264383,HIBO19-A-11-2
2399,1375,24888,0,486,9878,84399,569171,41742,2729,165015,708,2503,1823,13.6355,0.596234,0.043673,0.0169613,3.95321,0.0329404,2.02192,0.0296567,HIBO19-A-11-2
2400.5,1310,27989,0,397,10133,76675,659735,44192,2004,148344,573,2597,2204,14.9288,0.63335,0.04987328,0.0129661,3.35681,0.0296434,1.73504,0.0338702,HIBO19-A-11-2
2401,nan,nan,nan,nan,nan,nan,nan,nan,nan,nan,nan,nan,nan,nan,nan,nan,nan,nan,nan,nan,nan,HIBO19-A-11-2
2401.5,nan,nan,nan,nan,nan,nan,nan,nan,nan,nan,nan,nan,nan,nan,nan,nan,nan,nan,nan,nan,nan,HIBO19-A-11-2